gyro_x	gyro_y	gyro_z	acc_x	acc_y	acc_z
234	-304	134	832	3072	16576
161	-322	88	896	3072	16640
172	-327	82	896	3136	16384
220	-339	175	896	3072	16384
191	-322	119	960	2944	16512
169	-321	51	832	3136	16512
184	-320	145	832	3008	16384
214	-338	128	896	3136	16640
127	-299	70	1024	3200	16576
169	-321	82	832	3072	16448
223	-305	132	960	2944	16384
111	-290	87	896	3136	16640
209	-297	90	896	3136	16512
194	-348	138	960	3072	16448
186	-306	84	896	3072	16448
181	-324	81	832	3264	16384
172	-305	116	896	3200	16512
196	-342	117	960	3008	16512
159	-265	85	896	3136	16512
159	-323	86	960	3136	16320
202	-283	134	960	3072	16576
113	-328	49	960	3008	16384
240	-298	81	832	3008	16576
99	-305	78	832	3136	16640
165	-283	161	768	3136	16384
192	-334	62	1024	3136	16512
116	-302	151	960	3136	16512
217	-310	91	1088	3136	16448
181	-339	33	896	3072	16576
173	-287	142	1024	3136	16704
119	-278	38	896	3136	16512
143	-349	137	832	3008	16320
290	-266	93	1024	3264	16576
150	-392	60	960	3072	16640
151	-242	107	960	2944	16512
206	-373	77	896	3136	16448
1706	2186	1059	704	3136	16256
1802	-3282	-3568	-832	4800	14848
-745	2452	916	-1536	1600	16192
-31	-1171	-73	3456	2944	17408
-120	-1050	-869	256	1920	16832
219	1151	1268	384	3200	16704
-988	-1211	-988	1216	-448	17408
705	-553	-2887	12160	13376	13376
2687	-3635	-201	-192	3968	14592
430	-1333	-1506	-1344	2880	16000
2863	-2921	3166	2240	5824	17152
6140	-7731	1664	3584	5632	16576
6275	-9715	1020	4800	5504	16448
6024	-12304	3236	6720	6784	15232
6250	-11364	2096	8768	6848	13056
3931	-11280	1862	10880	8128	10624
4953	-10854	2207	12480	9024	6912
6399	-12867	-257	13568	9408	4864
2272	-10919	2027	14336	7872	1536
4829	-9474	1881	12864	7232	-3328
1718	-8360	2913	13120	6208	-3264
3072	-6686	3221	14656	6272	-3776
4484	-4338	981	12416	5760	-7424
4653	-4199	-3374	12480	4992	-8128
2897	-2266	-4224	11008	3584	-9920
1036	-1267	-715	10688	3776	-10624
-1009	-776	1063	10880	4672	-11648
-2402	237	-83	11072	4736	-11072
-1268	443	1420	12416	6016	-9856
1973	-600	-279	11904	5760	-9792
-722	413	775	10944	4352	-10048
-1495	328	1631	11520	4992	-10496
-1174	419	784	11584	5120	-9472
274	-188	643	12288	5760	-8384
-133	-307	-583	11648	4736	-8384
-1302	291	913	12032	5504	-9984
-627	-305	533	12288	5760	-8896
-894	-57	874	12224	5696	-9024
-1807	291	-21	11712	5952	-10112
-2091	715	1490	12096	6464	-9536
-107	-242	551	12736	6400	-8128
-789	-680	-1351	11712	5952	-7744
2382	-664	-718	11968	7424	-10304
-518	1184	-1815	10560	4480	-8704
-2515	513	1095	11456	6528	-9216
596	1464	-2468	13312	8000	-7168
-638	-1603	1325	11712	7296	-8192
-6660	-12241	-1152	8960	3904	-960
-1612	3436	384	12032	5760	-7232
-6384	-518	12783	14400	8320	-7616
5763	8537	-19540	192	8000	-6080
4524	750	-4668	14144	9472	-7488
-1403	-1541	459	10816	11328	-4352
1744	-3665	-5650	9856	11584	-3968
-418	-1346	1166	9984	11328	-6400
1899	-939	3288	10624	11328	-7040
298	-1255	2377	10176	9280	-7552
3525	-1980	2478	10816	10240	-7936
7782	-4889	7532	10624	9856	-7808
12293	-5182	8730	9856	4416	-9216
15437	-6264	12897	10368	3328	-9664
14815	-5060	15061	7488	-2496	-13056
14628	-4442	10045	6912	-9792	-12416
12300	-1979	12087	5440	-12672	-9984
6461	-287	7687	3008	-16384	-6848
4691	-744	5741	1408	-16832	-6208
4167	-205	2500	896	-17792	-5824
-1129	-665	-1219	192	-17920	-4800
107	-483	-265	704	-15872	-6016
412	-435	882	-128	-15488	-4544
-81	23	224	192	-16704	-5120
752	-271	-342	320	-15488	-4928
365	-338	-413	0	-16256	-4544
398	-206	104	-192	-15552	-4480
-26	-440	-1018	640	-16640	-4864
103	-498	-435	576	-16192	-4800
-69	-307	-470	640	-16256	-5504
175	-123	405	320	-15552	-4416
618	-242	304	1024	-15936	-5120
109	-253	-141	320	-16256	-4608
397	-42	402	512	-15808	-4864
268	-143	573	448	-16192	-4672
117	-259	556	448	-16000	-4672
-509	-173	1020	384	-15936	-4736
95	-459	-1286	640	-16256	-5120
139	-399	-354	512	-16256	-5184
140	-436	-143	768	-16384	-5120
76	-189	287	640	-16064	-5184
1	-144	162	512	-15808	-5056
-591	100	-1283	768	-16192	-5184
-304	-3	-1422	448	-16000	-5312
-175	-98	1	1152	-16512	-5760
-583	150	-757	1536	-15936	-5376
102	-260	-225	1088	-15232	-5440
-215	-371	-1013	1344	-16064	-5504
104	-415	-426	1536	-16448	-5888
-284	-1041	-1536	2944	-16192	-6720
754	-2884	792	2496	-15616	-5504
1826	-5381	466	2816	-16320	-7360
-146	-4252	438	1728	-15168	-5760
1540	-5929	-254	1024	-16384	-6016
-2402	-3293	1282	256	-15360	-6336
-676	-2977	-751	384	-15872	-5824
244	-3192	-1944	896	-15360	-7232
2015	-4917	-2327	832	-15360	-6848
-49	-4020	-2086	-256	-15552	-7232
2800	-6204	-3151	448	-16896	-5184
912	-9397	-3539	832	-15040	-7488
4706	-7366	-3473	320	-14016	-7424
2806	-5516	-2127	320	-14208	-5376
2164	-905	-1759	0	-14464	-5056
-201	-166	-124	64	-15680	-4288
-3881	-989	318	-640	-14848	-5376
2669	736	-2251	1216	-14400	-6336
371	1024	-151	2176	-17728	-5248
-1284	1508	-462	2432	-17024	-4608
2121	476	-290	1984	-15424	-3776
1883	116	-325	1920	-15936	-4608
-608	-57	-252	1984	-16192	-2944
390	-150	-1769	2048	-16000	-3904
-628	-70	409	2368	-15296	-3840
723	128	79	2688	-16128	-4416
389	-267	-336	2368	-15616	-3456
-611	86	-859	2688	-16064	-4032
-1586	636	-2431	2624	-15616	-3712
-2383	303	-671	3328	-16320	-4544
-989	-287	-956	3712	-16064	-3072
-3726	-193	-922	4032	-16192	-4928
-5196	208	-987	5120	-17856	-5504
-8526	-1270	-766	5056	-16192	-5952
-9977	-1731	-916	3520	-11712	-8704
-9686	-1076	-1362	4608	-11712	-10048
-11967	229	47	5952	-11584	-12096
-13468	2752	1494	5888	-8768	-14080
-16570	1843	706	6976	-8448	-13888
-13035	765	1958	6080	-1088	-14912
-13930	-1483	-4991	6336	2560	-14464
-10099	-665	205	5056	6464	-13056
-11472	-1888	3393	5248	7360	-12032
-12656	1604	993	6400	9088	-11328
-11133	2274	121	6400	10944	-8960
-13775	-2409	10601	8704	13504	-7296
-12820	-4420	7204	8192	13056	-2304
-11083	-3638	4547	8320	13504	-1088
-7367	-1902	3266	10944	13440	-64
-1081	-776	1398	11008	12800	960
-1219	-414	232	11584	11264	1856
-3218	-231	1178	11904	11392	3776
-7545	-1778	3470	12544	10880	3264
-3561	-1125	3648	14976	9984	5888
-3147	-2265	1541	13120	8192	5504
-8894	-3004	4644	17152	8064	8320
-10516	-3712	4494	15680	5632	6656
-4489	-2868	3294	15808	4032	6336
-5115	-6328	2580	18624	3200	8064
-980	-2365	-1812	16640	3328	4160
-260	-688	2235	16000	3456	4032
-58	-649	-103	14720	2304	4288
-244	189	179	16192	2816	4288
1120	-617	-499	15488	2304	4416
857	-305	-194	15296	2688	4288
1117	-479	-84	16384	3200	4544
423	-377	-692	16256	2944	4672
1605	-884	-560	16064	3200	4480
3509	-1483	-2125	15744	4288	3712
3531	-3293	-3182	16256	3520	3648
8777	-4107	-8242	15872	6656	1536
8727	-3974	-8097	14848	8320	64
8021	-4221	-5900	15552	8576	-896
5914	-4112	-5522	13056	9920	-2816
7703	-4061	-2383	12352	11136	-5440
8985	-3563	-1539	9024	9344	-7616
9849	-3259	-2482	9280	9152	-9408
12382	-809	-1172	8384	7296	-10304
11277	-1672	-1499	8000	5120	-13376
8608	-543	-782	7936	3264	-13952
3529	-1468	1331	8064	1408	-13056
3171	2797	-3799	7360	1344	-13312
2498	-267	-513	8512	1344	-13376
2355	1878	-3804	8448	1088	-13824
1570	4217	-5008	8128	832	-12608
-518	3096	-1531	9536	832	-12416
-245	4874	2096	9472	1920	-12288
7619	8065	-8131	12224	3264	-12928
4692	18273	-4675	16832	6912	-8960
1521	16687	488	13632	2176	-6464
-43	15534	1967	14144	128	-5440
-2269	12759	1199	16320	1664	-1088
-3639	8094	-1172	16832	-448	2112
293	10074	-2734	16704	3456	8000
-1023	5905	-2234	16000	2752	9664
-204	5111	-414	14784	1792	8832
1283	2116	3240	13824	2688	9024
6915	3347	8565	15360	704	10624
-1704	1360	-1792	13184	-1408	9792
614	9357	-6505	15296	3968	14528
6694	9142	2186	9664	2688	13568
-2957	9564	-2562	8256	2432	14784
3051	3871	3644	6784	3264	18944
3467	7270	-3454	4032	3584	16896
1912	7259	-4460	2816	4032	17088
436	1937	2690	576	2176	17216
-26	-795	1453	64	3456	16704
268	-640	4846	-192	3456	17024
-264	-1927	-524	576	2816	18368
-316	-245	1531	-64	3904	17088
-242	-2723	-263	-640	3648	18112
117	-644	3	576	4160	16640
1254	-643	-272	1152	4096	16960
3523	-1078	1262	1856	5952	17024
8385	413	1384	1280	6848	16448
7972	1496	-1755	1408	7232	15488
3172	-1113	-1777	512	8576	15552
4694	-457	-4194	128	10880	15232
6407	-1300	6566	1152	9472	11840
7495	-1929	4317	1280	10880	9728
6934	-3405	2223	-7552	5312	21824
8759	-2912	4174	3648	13440	4928
6493	-3124	373	3072	13952	448
7852	79	-1641	3392	16576	6848
5879	-421	-2400	3264	16064	4096
4630	-229	-2542	2368	15936	1216
5216	-1016	1894	2176	17408	1280
4855	-958	3007	2240	17664	-512
1186	286	-953	2880	16128	-1792
3940	-1629	697	3200	16256	-1536
623	-2460	2240	2880	14336	-3200
-89	-979	-694	3008	16448	-2624
-2092	-856	222	3136	15936	-3456
-3281	-408	1020	3264	16320	-1728
-1359	-50	667	3648	16128	-448
-3085	-127	1153	3456	15040	-448
-6440	140	1896	3904	14208	320
-10034	-1003	3132	4992	14720	1856
-10202	-1458	936	5504	15296	4480
-10512	-1553	953	5952	14976	6848
-8496	-1900	1783	5952	13952	8832
-6295	-1694	1298	6272	12800	10496
-4173	-1087	93	6528	11520	11072
-4742	-1479	677	7232	10880	11520
-3489	-707	-1538	7296	9472	12736
-5533	-1704	-5057	7296	7936	13696
-5432	-2356	-2934	6592	7808	13824
-4993	-3202	-1088	7296	6912	12800
-3223	-3328	-1263	7232	6336	13184
-2638	-1908	-20	7616	5440	13632
-3467	-5903	2738	8448	5056	14464
-5435	-4712	3550	9600	5376	13248
-6079	-4466	3295	9856	3520	12928
-2945	-1994	1071	9984	3648	14400
-1682	-1144	-365	10368	1280	12480
-1469	-2335	1005	11520	896	12736
-1469	-2841	-127	12352	576	13760
-1574	-3502	477	12544	512	12928
-1327	-3913	2111	12160	768	11584
1064	-1641	-128	12608	448	11328
1280	-1418	-686	13440	256	10304
-725	-2411	-854	13440	-64	9728
418	-883	-273	13824	64	9856
149	-434	10	13376	64	8832
36	95	-235	13696	896	9536
-218	-345	391	13760	832	9600
-117	-318	434	13696	320	10048
24	-371	429	13696	576	9536
1393	-314	235	14016	256	9728
183	-445	300	13888	320	9408
495	57	-153	13824	832	9152
-398	230	-274	13760	256	9792
2590	1347	-2154	12736	960	10304
2907	2087	-1794	13120	2112	10496
508	2876	3363	12864	2560	12736
4716	5079	2172	11712	960	11648
7519	10833	8827	9664	3072	12288
1545	6693	3816	9152	3456	12288
-1726	7882	2202	9216	128	14848
4323	3454	2773	7360	3264	18304
-7704	21019	-11990	2752	-64	5632
-5654	511	1831	5056	-960	17984
644	-2296	-843	9216	6656	20544
5558	5660	-5600	5824	-1856	18176
9146	5291	4743	12928	-448	12928
7987	16835	-7389	5248	9792	15744
2843	9091	-1495	1600	6784	15744
2811	-566	2509	-768	8064	13824
-1884	-11435	6363	-320	6720	13504
-8136	-5969	388	1216	4736	15680
-5490	-7022	1330	3840	6400	16960
184	-739	-5579	5312	3968	18368
-460	-6411	-6401	8512	-3328	16832
-5421	-14085	-10737	2816	6464	30272
-3295	1340	-5840	128	6592	14784
-2026	7959	3206	4352	3328	16320
1249	-435	-1592	9664	2944	15296
-2694	-2498	-3742	6336	1792	15360
639	3012	1128	4736	3008	16128
-376	63	128	8256	2496	15488
-368	-2119	-1258	7616	2624	15872
31	902	558	5888	2624	15680
132	-493	128	7744	2752	15424
-37	-1216	-385	7168	2944	15488
136	452	444	6528	2688	15616
7	-485	-60	7424	2688	15488
71	-564	-58	6976	2752	15680
90	68	317	6720	2880	15552
70	-574	-52	7232	2752	15488
74	-368	53	6976	2688	15552
